#SESCA CD calculation module:
#Workdir: /home/ymh/mybin/CD/examples/0.singlePDB
#Target file: DISICL_pdet_2fvy.out + Seq_2fvy.out
#Basis set file: 
#    /home/ymh/software/SESCA/libs/Map_BB_DS-dTSC3.dat
#    /home/ymh/software/SESCA/libs/Map_SC_DS-dTSC3.dat

#Weighting factors for the calculated CD spectrum:
#         Alpha  :   0.434 
#          Beta  :   0.133 
#          Coil  :   0.436 

#   wvlgth       Icalc
   269.000       0.066   
   268.000       0.114   
   267.000       0.019   
   266.000      -0.022   
   265.000      -0.018   
   264.000       0.003   
   263.000       0.014   
   262.000      -0.025   
   261.000      -0.066   
   260.000      -0.035   
   259.000       0.024   
   258.000       0.047   
   257.000       0.023   
   256.000      -0.008   
   255.000      -0.050   
   254.000      -0.035   
   253.000      -0.020   
   252.000      -0.055   
   251.000      -0.093   
   250.000      -0.106   
   249.000      -0.127   
   248.000      -0.146   
   247.000      -0.187   
   246.000      -0.285   
   245.000      -0.436   
   244.000      -0.565   
   243.000      -0.743   
   242.000      -1.015   
   241.000      -1.317   
   240.000      -1.710   
   239.000      -2.242   
   238.000      -2.803   
   237.000      -3.473   
   236.000      -4.228   
   235.000      -5.034   
   234.000      -5.953   
   233.000      -6.997   
   232.000      -8.153   
   231.000      -9.375   
   230.000      -10.622   
   229.000      -11.809   
   228.000      -12.921   
   227.000      -13.925   
   226.000      -14.833   
   225.000      -15.580   
   224.000      -16.145   
   223.000      -16.563   
   222.000      -16.827   
   221.000      -16.957   
   220.000      -16.980   
   219.000      -16.916   
   218.000      -16.746   
   217.000      -16.588   
   216.000      -16.400   
   215.000      -16.227   
   214.000      -16.124   
   213.000      -16.107   
   212.000      -16.147   
   211.000      -16.325   
   210.000      -16.514   
   209.000      -16.584   
   208.000      -16.295   
   207.000      -15.473   
   206.000      -13.988   
   205.000      -11.940   
   204.000      -9.352   
   203.000      -6.287   
   202.000      -2.826   
   201.000       1.095   
   200.000       5.478   
   199.000      10.206   
   198.000      15.023   
   197.000      19.502   
   196.000      23.248   
   195.000      26.119   
   194.000      28.131   
   193.000      29.283   
   192.000      29.658   
   191.000      29.282   
   190.000      28.204   
   189.000      26.422   
   188.000      24.281   
   187.000      21.873   
   186.000      19.355   
   185.000      16.934   
   184.000      14.574   
   183.000      12.218   
   182.000      10.097   
   181.000       8.192   
   180.000       6.487   
   179.000       5.006   
   178.000       3.678   
